File: 2720/a4/.ipynb_checkpoints/test-checkpoint.csv
Cement (component 1)(kg in a m^3 mixture),Blast Furnace Slag (component 2)(kg in a m^3 mixture),Fly Ash (component 3)(kg in a m^3 mixture),Water  (component 4)(kg in a m^3 mixture),Superplasticizer (component 5)(kg in a m^3 mixture),Coarse Aggregate  (component 6)(kg in a m^3 mixture),Fine Aggregate (component 7)(kg in a m^3 mixture),Age (day),"Concrete compressive strength(MPa, megapascals) "
500,0,0,140,4,966,853,28,67.5686
298,137,107,201,6,878,655,28,53.524
135,0,166,180,10,961,805,28,13.2931
337.9,189,0,174.9,9.5,944.7,755.8,3,24.0972
310,0,0,192,0,970,850,7,14.9892
393,0,0,192,0,940,758,28,39.5828
393,0,0,192,0,940.6,785.6,90,48.8466
203.5,135.7,0,185.7,0,1076.2,759.3,7,11.9576
450.1,50,0,200,3,1124.4,613.2,28,39.376
147,115,89,202,9,860,829,28,19.9879
159.8,250,0,168.4,12.2,1049.3,688.2,28,39.456
266.2,112.3,87.5,177.9,10.4,909.7,744.5,28,39.4215
229.97,0,118.31,195.47,4.63,1029.4,758.59,28,24.4833
531.3,0,0,141.8,28.2,852.1,893.7,91,59.1984
425,106.3,0,151.4,18.6,936,803.7,91,66.6999
213.76,98.06,24.52,181.74,6.65,1066,785.52,100,49.9732
222.36,0,96.67,189.29,4.46,967.08,870.32,100,40.7136
228,342.1,0,185.7,0,955.8,674.3,28,39.6993
350,0,0,186,0,1050,770,7,20.2775
213.74,0,174.74,154.79,10.16,1053.5,776.35,3,17.5747
397,0,0,185.7,0,1040.6,734.3,28,33.0824
313,145,0,178,8,1002,689,28,41.0514
446,24,79,162,11.64,967,712,56,56.144
305.3,203.5,0,203.5,0,965.4,631,28,43.377
164,0,200,181,13,849,846,28,15.0857
362.6,189,0,164.9,11.6,944.7,755.8,56,77.2972
160,188,146,203,11,829,710,28,32.8397
382.5,0,0,185.7,0,1047.8,739.3,28,37.4379
145.7,172.6,0,181.9,3.4,985.8,816.8,28,23.7442
531.3,0,0,141.8,28.2,852.1,893.7,28,56.3991
194.68,0,100.52,170.17,7.48,998,901.8,56,43.3887
139.6,209.4,0,192,0,1047,806.9,360,44.698
145.9,230.5,0,202.5,3.4,827,871.8,28,32.7205
213.72,98.05,24.51,181.71,6.86,1065.8,785.38,100,53.9032
167.95,42.08,163.83,121.75,5.72,1058.7,780.11,3,7.74971
212,0,124.78,159,7.84,1085.4,799.54,100,47.8152
337.9,189,0,174.9,9.5,944.7,755.8,56,59.8948
446,24,79,162,11.64,967,712,7,38.0177
359,19,141,154,10.91,942,801,56,68.7506
133,200,0,192,0,927.4,839.2,3,6.88373
286.3,200.9,0,144.7,11.2,1004.6,803.7,91,76.8007
310,0,0,192,0,1012,830,3,11.8521
250,0,95.69,191.84,5.33,948.9,857.2,3,8.48745
425,106.3,0,153.5,16.5,852.1,887.1,7,49.201
159.1,186.7,0,175.6,11.3,989.6,788.9,28,32.768
500,0,0,200,0,1125,613,7,33.2121
213.72,98.05,24.51,181.71,6.86,1065.8,785.38,3,17.9953
275.07,0,121.35,159.48,9.9,1053.6,777.5,3,23.8007
166.8,250.2,0,203.5,0,975.6,692.6,3,6.90234
349,0,0,192,0,1047,806,7,18.1263
145.4,0,178.9,201.7,7.8,824,868.7,28,10.5359
387,20,94,157,13.93,938,845,3,25.5106
150.7,0,185.3,166.7,15.6,1074.5,678,28,13.4613
166.09,0,163.27,176.46,4.49,1058.6,780.09,14,25.483
397,17.2,158,167,20.8,967,633,28,55.6476
149.5,236,0,175.8,12.6,846.8,892.7,28,32.9638
190.34,0,125.18,166.61,9.88,1079,798.9,14,19.4156
295.71,0,95.64,171.54,8.87,955.14,859.2,3,22.9458
252,0,0,185,0,1111,784,28,19.6914
164.6,0,150.4,181.6,11.7,1023.3,728.9,28,18.0339
380,0,0,228,0,932,670,90,52.9083
202,11,141,206,1.72,942,801,56,23.2452
238.05,0,94.11,186.66,7,949.91,847.01,14,25.6899
148,0,137,158,16,1002,830,28,17.954
380,95,0,228,0,932,594,365,43.6983
300,0,0,184,0,1075,795,7,15.5753
239.6,359.4,0,185.7,0,941.6,664.3,7,25.4224
145,116,119,184,5.7,833,880,28,29.1579
281,0,0,185,0,1104,774,28,22.4355
350,0,0,203,0,974,775,14,22.5321
339.2,0,0,185.7,0,1069.2,754.3,7,21.1793
318.8,212.5,0,155.7,14.3,852.1,880.4,7,33.3982
290.35,0,96.18,168.08,9.41,961.18,865,100,48.9735
381.4,0,0,185.7,0,1104.6,784.3,28,22.4893
540,0,0,173,0,1125,613,28,67.3066
212.07,0,121.62,180.31,5.69,1057.6,779.32,100,39.6104
290.35,0,96.18,168.08,9.41,961.18,865,56,45.0848
313.8,0,112.6,169.9,10.1,925.3,782.9,28,38.461
190,190,0,228,0,932,670,180,46.9319
389.9,189,0,145.9,22,944.7,755.8,3,40.5963
277.19,97.82,24.46,160.7,11.19,1061.7,782.46,3,30.4473
122.6,183.9,0,203.5,0,958.2,800.1,28,24.2909
178.03,129.8,118.6,179.94,3.57,1007.3,746.8,100,49.9939
139.6,209.4,0,192,0,1047,806.9,3,8.06342
376,0,0,214.6,0,1003.5,762.36,3,16.2785
190.34,0,125.18,161.85,9.88,1088.1,802.59,100,40.3895
359,19,141,154,10.91,942,801,3,23.6392
158.8,238.2,0,185.7,0,1040.6,734.3,28,21.0662
200,133,0,192,0,965.4,806.2,90,43.2508
212.07,0,121.62,180.31,5.69,1057.6,779.32,14,20.9187
255.3,98.8,77,188.6,6.5,919,749.3,28,33.7988
355,19,97,145,13.13,967,871,28,44.0299
202,11,141,206,1.72,942,801,3,9.84966
376,0,0,214.6,0,1003.5,762.36,14,25.6209
222.36,0,96.67,189.29,4.46,967.08,870.32,14,24.4488
275,180,120,162,10.35,830,765,28,76.2354
166.8,250.2,0,203.5,0,975.6,692.6,7,15.7483
475,0,0,162,9.5,1044,662,28,58.5227
200,0,0,180,0,1125,845,7,7.83934
102,153,0,192,0,887,942,28,17.2755
250,0,95.69,191.84,5.33,948.9,857.2,28,27.2205
362.6,189,0,164.9,11.6,944.7,755.8,28,71.2987
318.8,212.5,0,155.7,14.3,852.1,880.4,91,68.0995
250,0,95.69,191.84,5.33,948.9,857.2,14,24.6557
238.2,158.8,0,185.7,0,1040.6,734.3,28,26.9137
252.1,97.1,75.6,193.8,8.3,835.5,821.4,28,33.3996
296,0,0,192,0,1085,765,90,29.3924
141.3,212,0,203.5,0,971.8,748.5,28,29.8922
425,106.3,0,151.4,18.6,936,803.7,7,46.8016
277,0,0,191,0,968,856,90,31.2539
491,26,123,210,3.93,882,699,28,55.5511
375,93.8,0,126.6,23.4,852.1,992.6,3,28.9994
439,177,0,186,11.1,884.9,707.9,3,39.3001
238.1,0,0,185.7,0,1118.8,789.3,7,10.3359
540,0,0,162,2.5,1040,676,28,79.9861
333,17.5,163,167,17.9,996,652,28,47.2774
446,24,79,162,11.64,967,712,3,25.0211
480,0,0,192,0,936,721,3,24.3937
284,15,141,179,5.46,842,801,28,43.7335
323.7,282.8,0,183.8,10.3,942.7,659.9,7,49.8009
349,0,0,192,0,1056,809,7,9.01145
200,133,0,192,0,965.4,806.2,3,11.4143
166.09,0,163.27,176.46,4.49,1058.6,780.09,100,33.543
252.31,0,98.75,146.25,14.17,987.76,889.01,56,55.8269
531.3,0,0,141.8,28.2,852.1,893.7,7,46.8982
331,0,0,192,0,1025,821,28,31.7435
446,24,79,162,11.61,967,712,3,35.3632
229.97,0,118.31,195.47,4.63,1029.4,758.59,100,35.3425
439,177,0,186,11.1,884.9,707.9,28,65.9966
238.05,0,94.11,186.66,7,949.91,847.01,28,30.2335
160.2,188,146.4,203.2,11.3,828.7,709.7,28,35.3143
397,0,0,186,0,1040,734,28,36.9352
250,0,0,182,0,1100,820,7,12.7346
225,0,0,181,0,1113,833,7,11.1695
214.9,53.8,121.89,155.63,9.61,1014.3,780.58,14,38.6038
142,167,130,174,11,883,785,28,44.6091
380,95,0,228,0,932,594,270,41.1514
192,288,0,192,0,929.8,716.1,3,12.7884
194.68,0,100.52,170.17,7.48,998,901.8,3,12.1761
290.2,193.5,0,185.7,0,998.2,704.3,28,33.0431
290.2,193.5,0,185.7,0,998.2,704.3,7,21.8591
332.5,142.5,0,228,0,932,594,365,41.0528
362.6,189,0,164.9,11.6,944.7,755.8,28,71.2987
277.19,97.82,24.46,160.7,11.19,1061.7,782.46,14,47.7117
314,145,113,179,8,869,690,28,46.2294
302,0,0,203,0,974,817,180,26.7448
265,111,86,195,6,833,790,28,41.5409
148,175,0,171,2,1000,828,28,26.9171
525,0,0,189,0,1125,613,28,55.9441
167.95,42.08,163.83,121.75,5.72,1058.7,780.11,14,17.823
325.6,166.4,0,174,8.9,881.6,790,28,61.2358
218.85,0,124.13,158.49,11.33,1078.7,794.91,3,15.3408
296,0,107,221,11,819,778,28,31.4194
297.16,0,117.54,174.8,9.52,1022.8,753.45,3,21.9115
165,0.02,143.57,163.81,0,1005.6,900.9,14,16.8784
322,149,0,186,8,951,709,28,52.4209
272.8,105.1,81.8,209.7,9,904,679.7,28,37.171
250,0,95.69,191.84,5.33,948.9,857.2,56,39.64487
190,190,0,228,0,932,670,270,50.6551
331,0,0,192,0,879,825,3,13.5206
218.23,54.64,123.78,140.75,11.91,1075.7,792.67,14,35.9562
213.76,98.06,24.52,181.74,6.65,1066,785.52,56,47.1326
439,177,0,186,11.1,884.9,707.9,7,56.0958
250.2,166.8,0,203.5,0,977.6,694.1,7,19.3501
289,0,0,192,0,913.2,895.3,90,32.0682
135.7,203.5,0,185.7,0,1076.2,759.3,28,18.1987
425,106.3,0,153.5,16.5,852.1,887.1,28,60.2947
212.57,0,100.39,159.35,10.37,1003.8,903.79,3,13.3345
385,0,0,186,0,966,763,14,27.9238
349,0,0,192,0,1056,809,28,33.6051
362.6,189,0,164.9,11.6,944.7,755.8,28,71.2987
380,95,0,228,0,932,594,28,36.4478
491,26,123,210,3.93,882,699,7,33.4888
314,0,113,170,10,925,783,28,38.459
310,0,0,192,0,1012,830,120,38.7003
255,99,77,189,6,919,749,28,33.7981
165,128.5,132.1,175.06,8.08,1005.8,746.6,3,19.4156
349,0,0,192,0,1047,806,90,39.4863
213.5,0,174.24,154.61,11.66,1052.3,775.48,100,59.3018
323.7,282.8,0,183.8,10.3,942.7,659.9,56,80.1998
255.5,170.3,0,185.7,0,1026.6,724.3,28,32.0517
255,0,0,192,0,889.8,945,90,21.8591
297.16,0,117.54,174.8,9.52,1022.8,753.45,100,56.7439
145,0,179,202,8,824,869,28,10.5352
277,0,0,191,0,968,856,28,25.9657
183.9,122.6,0,203.5,0,959.2,800,3,4.90355
287,121,94,188,9,904,696,28,41.9408
475,0,0,228,0,932,594,365,41.9346
250,180,95,159,9.45,860,800,28,67.8651
220.8,147.2,0,185.7,0,1055,744.3,7,13.089
446,24,79,162,11.64,967,712,28,51.0212
213.5,0,174.24,159.21,11.66,1043.6,771.9,100,52.9587
155,184,143,194,9,880,699,28,28.9856
153,102,0,192,0,888,943.1,28,17.9643
491,26,123,201,3.93,822,699,3,29.549
331,0,0,192,0,978,825,360,41.2445
525,0,0,189,0,1125,613,90,58.7847
154.8,0,142.8,193.3,9.1,1047.4,696.7,28,12.4595
290.35,0,96.18,168.08,9.41,961.18,865,14,34.6737
203.5,305.3,0,203.5,0,963.4,630,28,41.6843
157,236,0,192,0,935.4,781.2,7,16.8894
295.8,0,0,185.7,0,1091.4,769.3,28,25.2169
313.3,262.2,0,175.5,8.6,1046.9,611.8,91,66.5965
275.07,0,121.35,159.48,9.9,1053.6,777.5,28,51.3315
332.5,142.5,0,228,0,932,594,28,33.019
304.8,0,99.6,196,9.8,959.4,705.2,28,30.1232
134.7,0,165.7,180.2,10,961,804.9,28,13.2938
387,20,94,157,11.61,938,845,3,34.7703
310,0,0,192,0,970,850,360,38.1142
172.38,13.61,172.37,156.76,4.14,1006.3,856.4,56,35.8528
331,0,0,192,0,978,825,7,16.2647
173.54,50.05,173.53,164.77,6.47,1006.2,793.5,28,38.2039
210.7,316.1,0,185.7,0,977,689.3,7,21.8198
281,0,0,186,0,1104,774,7,14.4997
155,0,143,193,9,877,868,28,9.7354
166.09,0,163.27,176.46,4.49,1058.6,780.09,3,10.7627
200,133,0,192,0,965.4,806.2,7,17.1659
381.4,0,0,185.7,0,1104.6,784.3,7,14.541
251.37,0,118.27,188.45,6.35,1028.4,757.73,56,36.6388
213.74,0,174.74,154.79,10.16,1053.5,776.35,100,50.0766
250.2,166.8,0,203.5,0,977.6,694.1,28,36.9642
198.6,132.4,0,192,0,978.4,825.5,360,44.2961
152,178,139,168,18,944,695,28,36.3492
173.54,50.05,173.53,164.77,6.47,1006.2,793.5,100,56.0613
393,0,0,192,0,940,758,3,19.1054
173,116,0,192,0,946.8,856.8,28,24.282
151.8,178.1,138.7,167.5,18.3,944,694.6,28,36.3499
202,11,141,206,1.72,942,801,7,15.07
102,153,0,192,0,887,942,90,25.461
316.1,210.7,0,185.7,0,977,689.3,28,38.7003
157,236,0,192,0,935.4,781.2,90,43.377
525,0,0,189,0,1125,613,270,67.1136
164,163,128,197,8,961,641,28,27.2343
393,0,0,192,0,940.6,785.6,3,19.1991
156,178,187,221,7,854,614,28,29.413
251.37,0,118.27,188.45,5.75,1028.4,757.73,28,29.6544
181.38,0,167.01,169.59,7.56,1055.6,777.8,3,13.624
251.37,0,118.27,192.94,5.75,1043.6,754.3,100,40.1482
173.81,93.37,159.9,172.34,9.73,1007.2,746.6,14,29.5509
251.37,0,118.27,188.45,6.35,1028.4,757.73,28,32.6605
375,93.8,0,126.6,23.4,852.1,992.6,28,56.6956
252.5,0,0,185.7,0,1111.6,784.3,7,11.4839
139.7,163.9,127.7,236.7,5.8,868.6,655.6,28,35.2253
190,190,0,228,0,932,670,90,42.3269
212,141.3,0,203.5,0,973.4,750,28,33.0038
213.5,0,174.24,159.21,11.66,1043.6,771.9,56,51.2556
228,342.1,0,185.7,0,955.8,674.3,7,21.9171
309.9,142.8,111.2,167.8,22.1,913.9,651.2,28,38.2156
362.6,189,0,164.9,11.6,944.7,755.8,56,77.2972
322.5,148.6,0,185.8,8.5,951,709.5,28,52.4264
331,0,0,192,0,978,825,90,37.2317
153,145,113,178,8,867,824,28,26.2277
331,0,0,192,0,978,825,180,38.9968
194.68,0,100.52,165.62,7.48,1006.4,905.9,14,24.9866
233.81,0,94.58,197.89,4.567,947.04,852.16,28,22.8354
200,0,0,180,0,1125,845,28,12.2451
393,0,0,192,0,940.6,785.6,28,39.6049
148,0,182,181,15,839,884,28,15.5201
425,106.3,0,153.5,16.5,852.1,887.1,91,65.1969
362.6,189,0,164.9,11.6,944.7,755.8,7,55.8958
139.6,209.4,0,192,0,1047,806.9,90,39.358
238.1,0,0,185.7,0,1118.8,789.3,28,17.5761
284,119.7,0,168.3,7.2,970.4,794.2,28,40.9349
238,0,0,186,0,1119,789,7,12.052
480,0,0,192,0,936.2,712.2,3,24.4047
246.83,0,125.08,143.3,11.99,1086.8,800.89,3,23.5249
446,24,79,162,11.64,967,712,7,39.3001
355,19,97,145,12.25,967,871,28,55.4546
150,237,0,174,12,1069,675,28,37.4317
500,0,0,151,9,1033,655,28,69.837
385,0,0,186,0,966,763,28,31.3505
374,189.2,0,170.1,10.1,926.1,756.7,7,46.2018
165,128.5,132.1,175.06,8.08,1005.8,746.6,28,46.3879
362.6,189,0,164.9,11.6,944.7,755.8,3,35.3012
237,92,71,247,6,853,695,28,28.627
298,0,107,210,11,880,744,28,31.8745
108.3,162.4,0,203.5,0,938.2,849,28,20.594
190.34,0,125.18,166.61,9.88,1079,798.9,3,12.5485
157,236,0,192,0,935.4,781.2,28,33.6644
164.2,0,200.1,181.2,12.6,849.3,846,28,15.0913
540,0,0,173,0,1125,613,90,69.6578
540,0,0,173,0,1125,613,14,59.7638
139.9,132.6,103.3,200.3,7.4,916,753.4,28,36.4436
184,86,190,213,6,923,623,28,22.932
249.1,0,98.75,158.11,12.8,987.76,889.01,56,42.0305
193.5,290.2,0,185.7,0,998.2,704.3,28,32.6267
277.19,97.82,24.46,160.7,11.19,1061.7,782.46,56,66.824
485,0,0,146,0,1120,800,28,71.9882
424,22,132,168,8.92,822,750,56,74.3649
424,22,132,168,8.92,822,750,28,72.0985
297.16,0,117.54,174.8,9.52,1022.8,753.45,14,36.9904
166.09,0,163.27,176.46,4.49,1058.6,780.09,28,21.5392
150,236.8,0,173.8,11.9,1069.3,674.8,28,37.4317
425,106.3,0,153.5,16.5,852.1,887.1,56,64.3005
182.04,45.21,121.97,170.21,8.19,1059.4,780.65,3,7.31534
475,0,0,228,0,932,594,7,38.6038
362.6,189,0,164.9,11.6,944.7,755.8,7,22.8975
424,22,132,178,8.48,882,750,3,32.0114
159,149,116,175,15,953,720,28,27.6756
317.9,0,126.5,209.7,5.7,860.5,736.6,28,40.062
379.5,151.2,0,153.9,15.9,1134.3,605,91,56.4957
469,117.2,0,137.8,32.2,852.1,840.5,91,70.6989
213.74,0,174.74,154.79,10.16,1053.5,776.35,56,46.6431
376,0,0,214.6,0,1003.5,762.36,28,31.971
349,0,0,192,0,1047,806,28,32.7225
154.8,183.4,0,193.3,9.1,877.2,867.7,28,23.7869
149,236,0,176,13,847,893,28,32.957
500,0,0,200,0,1125,613,270,55.15808
233.81,0,94.58,197.89,4.567,947.04,852.16,3,10.3835
389.9,189,0,145.9,22,944.7,755.8,28,74.4979
165,128.5,132.1,175.06,8.08,1005.8,746.6,56,53.724
159,209,161,201,7,848,669,28,30.8816
212.52,0,100.37,159.32,8.71,1007.8,903.59,3,13.5413
277,117,91,191,7,946,666,28,43.5749
182.04,45.21,121.97,170.21,8.19,1059.4,780.65,14,21.5048
279.8,128.9,100.4,172.4,9.5,825.1,804.9,28,52.827
146,230,0,202,3,827,872,28,33.0604
213.72,98.05,24.51,181.71,6.86,1065.8,785.38,56,50.773
203.5,305.3,0,203.5,0,963.4,630,7,19.5391
475,0,0,228,0,932,594,270,42.1311
362.6,189,0,164.9,11.6,944.7,755.8,3,35.3012
427.5,47.5,0,228,0,932,594,90,41.543
297.16,0,117.54,174.8,9.52,1022.8,753.45,28,47.4015
266,114,0,228,0,932,670,270,51.7328
146.5,114.6,89.3,201.9,8.8,860,829.5,28,19.9879
190.68,0,125.4,162.14,7.77,1090,804.01,3,15.0444
213.5,0,174.24,159.21,11.66,1043.6,771.9,14,29.5923
349,0,0,192,0,1047,806,360,42.127
405,0,0,175,0,1120,695,28,52.3036
331,0,0,192,0,1025,821,120,39.3829
168.88,42.22,124.25,158.33,10.83,1080.8,796.15,56,39.1484
425,106.3,0,151.4,18.6,936,803.7,3,36.3009
334,17.6,158,189,15.3,967,633,28,44.3264
333,0,0,192,0,931.2,842.6,7,23.405
203.5,135.7,0,185.7,0,1076.2,759.3,28,22.63
333,0,0,192,0,931.2,842.6,3,15.6159
300,0,120,212,10,878,728,28,23.8352
140,164,128,237,6,869,656,28,35.2253
322,0,116,196,10,818,813,28,31.1781
133,200,0,192,0,927.4,839.2,28,27.8748
190.34,0,125.18,161.85,9.88,1088.1,802.59,56,38.5624
480,0,0,192,0,936.2,712.2,90,54.3155
298,0,107,186,6,879,815,28,42.6372
132,207,161,179,5,867,736,28,33.3017
307,0,0,193,0,968,812,3,12.5416
153,102,0,192,0,888,943.1,3,4.78221
136,162,126,172,10,923,764,28,29.0683
178.03,129.8,118.6,179.94,3.57,1007.3,746.8,14,34.2394
236,157,0,192,0,972.6,749.1,28,32.8846
337.9,189,0,174.9,9.5,944.7,755.8,28,49.8974
229.97,0,118.31,195.47,4.63,1029.4,758.59,56,31.5366
277,0,0,191,0,968,856,360,33.7016
159,187,0,176,11,990,789,28,32.7639
166,260,0,183,13,859,827,28,37.9143
153.1,145,113,178.5,8,1001.9,688.7,28,25.5596
331,0,0,192,0,1025,821,7,17.4368
321.3,164.2,0,190.5,4.6,870,774,28,57.2182
288,192,0,192,0,932,717.8,90,50.5269
331,0,0,192,0,1025,821,3,14.3066
152.7,144.7,0,178.1,8,999.7,822.2,28,19.0095
116,173,0,192,0,909.8,891.9,7,10.0898
213.76,98.06,24.52,181.74,6.65,1066,785.52,3,13.1828
331,0,0,192,0,978,825,3,13.5206
332.5,142.5,0,228,0,932,594,7,30.2756
380,0,0,228,0,932,670,365,52.5167
315,137,0,145,5.9,1130,745,28,81.7512
190.34,0,125.18,161.85,9.88,1088.1,802.59,28,28.4685
349,0,0,192,0,1056,809,120,40.8583
362.6,189,0,164.9,11.6,944.7,755.8,28,71.2987
213.5,0,174.24,154.61,11.66,1052.3,775.48,3,17.3679
362.6,189,0,164.9,11.6,944.7,755.8,7,55.8958
375,93.8,0,126.6,23.4,852.1,992.6,91,62.501
153.1,145,113,178.5,8,867.2,824,28,26.2332
212.07,0,121.62,180.31,5.69,1057.6,779.32,56,34.2049
167,75.4,167,164.03,7.91,1007.3,770.1,28,41.4099
158.8,238.2,0,185.7,0,1040.6,734.3,7,9.6175
251.37,0,118.27,188.45,5.75,1028.4,757.73,3,17.2231
313,145,0,178,8,867,824,28,44.3885
252.5,0,0,185.7,0,1111.6,784.3,28,19.7652
522,0,0,146,0,896,896,7,50.511
374,0,0,190,7,1013,730,28,39.0519
359,19,141,154,10.91,942,801,3,25.1166
181.38,0,167.01,169.59,7.56,1055.6,777.8,56,35.5701
194.68,0,100.52,170.17,7.48,998,901.8,100,44.2781
252.31,0,98.75,146.25,14.17,987.76,889.01,28,50.6006
475,118.8,0,181.1,8.9,852.1,781.5,28,68.2995
322.2,0,115.6,196,10.4,817.9,813.4,28,31.1788
424,22,132,178,8.48,822,750,28,62.05284
167.95,42.08,163.83,121.75,5.72,1058.7,780.11,100,39.2312
212,141.3,0,203.5,0,973.4,750,7,15.0306
186.2,124.1,0,185.7,0,1083.4,764.3,28,17.5968
165,0.02,143.57,163.81,0,1005.6,900.9,56,36.5629
313.3,262.2,0,175.5,8.6,1046.9,611.8,28,59.7983
167,75.4,167,164.03,7.91,1007.3,770.1,100,56.8128
380,0,0,228,0,932,670,270,53.3006
286.3,200.9,0,144.7,11.2,1004.6,803.7,7,37.997
425,106.3,0,153.5,16.5,852.1,887.1,56,64.3005
362.6,189,0,164.9,11.6,944.7,755.8,56,77.2972
359,19,141,154,10.91,942,801,7,38.6107
183.9,122.6,0,203.5,0,959.2,800,7,10.7875
307,0,0,193,0,968,812,180,34.4876
167.35,129.9,128.62,175.46,7.79,1006.3,746.6,100,53.655
339,0,0,197,0,968,781,3,13.2241
374,189.2,0,170.1,10.1,926.1,756.7,56,63.3973
500,0,0,200,0,1125,613,14,36.9352
212.57,0,100.39,159.35,10.37,1003.8,903.79,14,25.3727
152,0,112,184,8,992,816,28,12.1761
273,105,82,210,9,904,680,28,37.1697
249.1,0,98.75,158.11,12.8,987.76,889.01,100,51.0557
135,105,193,196,6,965,643,28,21.9115
238.05,0,94.11,186.66,7,949.91,847.01,100,44.2988
173.54,50.05,173.53,164.77,6.47,1006.2,793.5,56,53.7722
172.38,13.61,172.37,156.76,4.14,1006.3,856.4,3,21.291
310,143,0,168,10,914,804,28,45.2986
236,0,0,194,0,968,885,28,18.4159
475,0,0,228,0,932,594,180,42.6206
252.31,0,98.75,146.25,14.17,987.76,889.01,100,60.9497
168.88,42.22,124.25,158.33,10.83,1080.8,796.15,28,31.1161
231.75,0,121.62,173.96,6.72,1056.4,778.45,3,15.4374
167.95,42.08,163.83,121.75,5.72,1058.7,780.11,28,24.242
313.3,262.2,0,175.5,8.6,1046.9,611.8,7,42.7958
202,11,141,206,1.72,942,801,28,21.9667
326.5,0,137.9,199,10.8,801.1,792.5,28,38.6307
375,0,0,186,0,1038,758,7,26.0622
251.37,0,118.27,188.45,6.35,1028.4,757.73,14,24.4281
181.38,0,167.01,169.59,7.56,1055.6,777.8,28,27.7721
339.2,0,0,185.7,0,1069.2,754.3,28,31.9
330.5,169.6,0,194.9,8.1,811,802.3,28,56.6191
251.37,0,118.27,192.94,5.75,1043.6,754.3,28,33.2741
222.36,0,96.67,189.29,4.46,967.08,870.32,3,11.5763
218.85,0,124.13,158.49,11.33,1078.7,794.91,28,30.2197
331,170,0,195,8,811,802,28,56.6129
132,206.5,160.9,178.9,5.5,866.9,735.6,28,33.3065
251.37,0,118.27,188.45,5.75,1028.4,757.73,14,29.9302
382,0,0,185,0,1047,739,7,24.0007
314,145.3,113.2,178.9,8,869.1,690.2,28,46.2342
362.6,189,0,164.9,11.6,944.7,755.8,91,79.2966
198.6,132.4,0,192,0,978.4,825.5,180,41.7195
425,106.3,0,153.5,16.5,852.1,887.1,3,33.3982
277.05,0,97.39,160.6,11.83,973.9,875.61,56,51.035
349,0,0,192,0,1047,806,3,14.9892
198.6,132.4,0,192,0,978.4,825.5,28,28.0217
261,100,78,201,9,864,761,28,32.3985
380,0,0,228,0,932,670,180,53.1041
362.6,189,0,164.9,11.6,944.7,755.8,3,35.3012
295,0,0,185,0,1069,769,7,14.7962
237.5,237.5,0,228,0,932,594,28,30.0798
321.4,0,127.9,182.5,11.5,870.1,779.7,28,37.2655
304,76,0,228,0,932,670,180,50.9488
427.5,47.5,0,228,0,932,594,365,43.6983
296,0,0,192,0,1085,765,28,21.6495
173.54,50.05,173.53,164.77,6.47,1006.2,793.5,3,23.0768
382.5,0,0,185.7,0,1047.8,739.3,7,24.0655
229.97,0,118.31,195.47,4.63,1029.4,758.59,3,10.0319
531.3,0,0,141.8,28.2,852.1,893.7,56,58.7985
296,0,0,186,0,1090,769,28,25.1797
316.1,210.7,0,185.7,0,977,689.3,7,24.4378
425,106.3,0,153.5,16.5,852.1,887.1,28,60.2947
349,0,0,192,0,1056,809,90,40.6584
135.7,203.5,0,185.7,0,1076.2,759.3,7,7.50701
475,118.8,0,181.1,8.9,852.1,781.5,7,55.5993
376,0,0,214.6,0,1003.5,762.36,56,36.3009
323.7,282.8,0,183.8,10.3,942.7,659.9,28,74.6978
203.5,305.3,0,203.5,0,963.4,630,3,9.56165
139.6,209.4,0,192,0,1047,806.9,180,44.2078
145,0,134,181,11,979,812,28,13.1966
181.9,272.8,0,185.7,0,1012.4,714.3,28,27.9355
218.85,0,124.13,158.49,11.33,1078.7,794.91,14,26.0484
424,22,132,168,8.92,822,750,3,32.1099
451,0,0,165,11.25,1030,745,28,78.8002
190.68,0,125.4,162.14,7.77,1090,804.01,28,26.4
214.9,53.8,121.89,155.63,9.61,1014.3,780.58,100,56.6336
238.2,158.8,0,185.7,0,1040.6,734.3,7,15.6911
236,0,0,193,0,968,885,365,25.0831
520,0,0,175,5.2,870,805,28,51.0212
321,0,128,182,11,870,780,28,37.2593
525,0,0,189,0,1125,613,7,42.4235
182.04,45.21,121.97,170.21,8.19,1059.4,780.65,56,43.499
288,192,0,192,0,932,717.8,7,23.5235
153,145,113,178,8,1002,689,28,25.5589
212.52,0,100.37,159.32,8.71,1007.8,903.59,28,31.6401
236,0,0,194,0,968,885,14,12.838
194.68,0,100.52,165.62,7.48,1006.4,905.9,56,33.9636
425,106.3,0,153.5,16.5,852.1,887.1,7,49.201
150.9,0,183.9,166.6,11.6,991.2,772.2,28,15.5697
155.2,183.9,143.2,193.8,9.2,879.6,698.5,28,28.9911
425,106.3,0,153.5,16.5,852.1,887.1,91,65.1969
181.9,272.8,0,185.7,0,1012.4,714.3,7,12.3726
277.05,0,97.39,160.6,11.83,973.9,875.61,14,41.8857
220.8,147.2,0,185.7,0,1055,744.3,28,25.745
318,0,126,210,6,861,737,28,40.0586
218.85,0,124.13,158.49,11.33,1078.7,794.91,100,46.2294
146,173,0,182,3,986,817,28,23.7387
166.8,250.2,0,203.5,0,975.6,692.6,90,43.5652
349,0,0,192,0,1047,806,180,41.0514
167.95,42.08,163.83,121.75,5.72,1058.7,780.11,56,32.8535
116,173,0,192,0,909.8,891.9,90,31.0237
375,93.8,0,126.6,23.4,852.1,992.6,56,60.1981
366,187,0,191,7,824,757,28,65.907
439,177,0,186,11.1,884.9,707.9,91,73.2982
276,116,90,180,9,870,768,28,44.2781
379.5,151.2,0,153.9,15.9,1134.3,605,28,52.2002
152.6,238.7,0,200,6.3,1001.8,683.9,28,26.8599
380,95,0,228,0,932,594,180,40.7591
382,0,0,186,0,1111,784,7,11.466
252.31,0,98.75,146.25,14.17,987.76,889.01,3,21.7805
190.68,0,125.4,162.14,7.77,1090,804.01,100,40.5688
323.7,282.8,0,183.8,10.3,942.7,659.9,3,28.2961
154.8,183.4,0,193.3,9.1,1047.4,696.7,28,18.2877
275,0,0,183,0,1088,808,7,14.2032
313,145,0,127,8,1000,822,28,44.5195
295.8,0,0,185.7,0,1091.4,769.3,7,14.8437
277,0,0,191,0,968,856,14,21.2634
160,128,122,182,6.4,824,879,28,39.3967
313,161,0,178,10,917,759,28,52.4415
362.6,189,0,164.9,11.6,944.7,755.8,3,35.3012
401.8,94.7,0,147.4,11.4,946.8,852.1,3,41.0997
194.68,0,100.52,170.17,7.48,998,901.8,14,24.2833
295,0,0,185,0,1069,769,28,25.1797
425,106.3,0,151.4,18.6,936,803.7,28,61.7977
149,139,109,193,6,892,780,28,23.6904
182.04,45.21,121.97,170.21,8.19,1059.4,780.65,28,31.2677
198.6,132.4,0,192,0,978.4,825.5,3,9.13142
313.3,0,113,178.5,8,1001.9,688.7,28,36.8049
249.1,0,98.75,158.11,12.8,987.76,889.01,28,30.8472
212.52,0,100.37,159.32,8.71,1007.8,903.59,56,42.5476
153,145,0,178,8,1000,822,28,19.0089
312.7,0,0,178.1,8,999.7,822.2,28,25.1038
213.5,0,174.24,159.21,11.66,1043.6,771.9,28,44.6367
237.5,237.5,0,228,0,932,594,365,38.9954
254,0,0,198,0,968,863,3,9.307926
385,0,136,158,20,903,768,28,55.5511
275.07,0,121.35,159.48,9.9,1053.6,777.5,14,38.7692
231.75,0,121.62,173.96,6.72,1056.4,778.45,100,45.8364
540,0,0,173,0,1125,613,270,74.1669
387,20,94,157,14.32,938,845,3,22.7527
393,0,0,192,0,940.6,785.6,7,27.7424
144,170,133,192,8,814,805,28,29.8681
304,76,0,228,0,932,670,90,49.1851
154,174,185,228,7,845,612,28,24.3385
312.7,144.7,0,127.3,8,999.7,822.2,28,44.5236
401.8,94.7,0,147.4,11.4,946.8,852.1,28,68.4994
339,0,0,185,0,1060,754,28,31.6469
427.5,47.5,0,228,0,932,594,28,37.4275
337.9,189,0,174.9,9.5,944.7,755.8,91,67.7962
140,133,103,200,7,916,753,28,36.4388
165,128.5,132.1,175.06,8.08,1005.8,746.6,100,55.0202
424,22,132,178,8.48,822,750,7,39.0046
183.9,122.6,0,203.5,0,959.2,800,90,32.5329
401.8,94.7,0,147.4,11.4,946.8,852.1,56,73.6981
238.05,0,94.11,186.66,7,949.91,847.01,3,19.9328
153,102,0,192,0,888,943.1,7,8.37438
255,0,0,192,0,889.8,945,7,10.2222
289,0,0,192,0,913.2,895.3,7,14.5969
400,0,0,187,0,1025,745,28,43.699
108.3,162.4,0,203.5,0,938.2,849,7,7.72351
212,0,124.78,159,7.84,1085.4,799.54,14,31.3505
336.5,0,0,181.9,3.4,985.8,816.8,28,44.8683
181.38,0,167.01,169.59,7.56,1055.6,777.8,100,45.3675
172.38,13.61,172.37,156.76,4.14,1006.3,856.4,14,29.7509
144,136,106,178,7,941,774,28,26.1449
388.6,97.1,0,157.9,12.1,852.1,925.7,56,55.1994
108.3,162.4,0,203.5,0,938.2,849,90,29.2317
500,0,0,200,0,1125,613,180,51.0419
366,187,0,191.3,6.6,824.3,756.9,28,65.9091
362.6,189,0,164.9,11.6,944.7,755.8,91,79.2966
154.8,0,142.8,193.3,9.1,877.2,867.7,28,9.73816
469,117.2,0,137.8,32.2,852.1,840.5,7,54.8961
156,243,0,180,11,1022,698,28,37.3627
167.35,129.9,128.62,175.46,7.79,1006.3,746.6,56,51.7245
251.37,0,118.27,192.94,5.75,1043.6,754.3,14,20.7256
280,129,100,172,9,825,805,28,52.8208
173,116,0,192,0,946.8,856.8,90,32.1027
540,0,0,173,0,1125,613,180,71.6228
298.1,0,107.5,163.6,12.8,953.2,784,28,35.8659
337.9,189,0,174.9,9.5,944.7,755.8,7,35.1012
289,134,0,195,6,924,760,28,46.2432
339,0,0,185,0,1069,754,28,31.84
425,106.3,0,153.5,16.5,852.1,887.1,3,33.3982
321,164,0,190,5,870,774,28,57.2127
480,0,0,192,0,936.2,712.2,28,43.9424
102,153,0,192,0,887,942,7,7.67594
165,0,150,182,12,1023,729,28,18.0298
298.2,0,107,209.7,11.1,879.6,744.2,28,31.8752
401.8,94.7,0,147.4,11.4,946.8,852.1,91,75.4976
286.3,200.9,0,144.7,11.2,1004.6,803.7,3,24.4006
255,0,0,192,0,889.8,945,3,8.20407
387,20,94,157,13.93,938,845,28,46.6844
122.6,183.9,0,203.5,0,958.2,800.1,3,3.31983
251.81,0,99.94,146.14,12.35,1006,899.76,3,21.0221
516,0,0,162,8.26,801,802,28,41.36856
339,0,0,197,0,968,781,14,27.0412
446,24,79,162,11.64,967,712,28,44.4229
374,189.2,0,170.1,10.1,926.1,756.7,3,34.398
339,0,0,197,0,968,781,7,20.967
251.37,0,118.27,188.45,5.75,1028.4,757.73,56,36.9697
385,0,0,186,0,966,763,1,6.26734
144,0,175,158,18,943,844,28,15.4167
239.6,359.4,0,185.7,0,941.6,664.3,28,39.4353
192,288,0,192,0,929.8,716.1,90,50.7323