File: 2720/a4/.ipynb_checkpoints/train-checkpoint.csv
Cement (component 1)(kg in a m^3 mixture),Blast Furnace Slag (component 2)(kg in a m^3 mixture),Fly Ash (component 3)(kg in a m^3 mixture),Water  (component 4)(kg in a m^3 mixture),Superplasticizer (component 5)(kg in a m^3 mixture),Coarse Aggregate  (component 6)(kg in a m^3 mixture),Fine Aggregate (component 7)(kg in a m^3 mixture),Age (day),Concrete compressive strength(MPa, megapascals)
500,0,0,200,0,1125,613,3,26.0622
122.6,183.9,0,203.5,0,958.2,800.1,7,10.3546
362.6,189,0,164.9,11.6,944.7,755.8,91,79.2966
522,0,0,146,0,896,896,28,74.9874
157,236,0,192,0,935.4,781.2,3,9.69472
379.5,151.2,0,153.9,15.9,1134.3,605,7,47.0981
356,119,0,160,9.03,1061,657,28,58.9985
190.34,0,125.18,161.85,9.88,1088.1,802.59,14,22.7182
540,0,0,162,2.5,1055,676,28,61.8874
342,38,0,228,0,932,670,180,52.1244
238,0,0,185,0,1118,789,28,17.5403
168.88,42.22,124.25,158.33,10.83,1080.8,796.15,100,48.153
250,0,95.69,187.42,5.53,956.86,861.17,56,38.328
193.5,290.2,0,185.7,0,998.2,704.3,7,17.2004
528,0,0,185,6.86,920,720,28,56.8335
446,24,79,162,11.64,967,712,56,55.2546
251.81,0,99.94,146.14,12.35,1006,899.76,14,33.3568
310,0,0,192,0,970,850,90,34.6806
540,0,0,173,0,1125,613,7,52.6139
295.71,0,95.64,171.54,8.87,955.14,859.2,28,39.9413
387,20,94,157,11.61,938,845,56,61.4599
254,0,0,198,0,968,863,180,27.6273
167,75.4,167,164.03,7.91,1007.3,770.1,14,32.9018
540,0,0,173,0,1125,613,3,41.6375
325,0,0,184,0,1063,783,7,17.5403
300,0,0,184,0,1075,795,28,26.8482
469,117.2,0,137.8,32.2,852.1,840.5,28,66.8999
190.68,0,125.4,162.14,7.77,1090,804.01,14,21.0635
446,24,79,162,11.61,967,712,56,61.0669
277.19,97.82,24.46,160.7,11.19,1061.7,782.46,100,66.9481
250,0,0,182,0,1100,820,28,20.8704
393,0,0,192,0,940,758,90,48.7942
183.9,122.6,0,203.5,0,959.2,800,28,24.0462
304,76,0,228,0,932,670,28,47.8138
339,0,0,185,0,1069,754,7,21.16
173,116,0,192,0,946.8,856.8,3,6.94095
379.5,151.2,0,153.9,15.9,1134.3,605,3,28.5995
212.52,0,100.37,159.32,8.71,1007.8,903.59,14,26.3104
166.8,250.2,0,203.5,0,975.6,692.6,28,33.9477
194.68,0,100.52,165.62,7.48,1006.4,905.9,28,25.7243
475,118.8,0,181.1,8.9,852.1,781.5,3,37.7971
339,0,0,197,0,968,781,90,35.1702
273,0,90,199,11,931,762,28,32.2399
173.81,93.37,159.9,172.34,9.73,1007.2,746.6,28,37.8109
475,0,59,142,1.9,1098,641,28,57.2265
425,106.3,0,153.5,16.5,852.1,887.1,3,33.3982
400,0,0,187,0,1025,745,7,30.1439
525,0,0,189,0,1125,613,3,33.7981
427.5,47.5,0,228,0,932,594,7,35.0764
266,114,0,228,0,932,670,365,52.9083
284,120,0,168,7,970,794,28,40.9342
302,0,0,203,0,974,817,28,21.753
154,144,112,220,10,923,658,28,16.4992
250,0,95.69,187.42,5.53,956.86,861.17,100,42.3476
173.81,93.37,159.9,172.34,9.73,1007.2,746.6,100,50.9385
505,0,60,195,0,1030,630,28,64.0178
214.9,53.8,121.89,155.63,9.61,1014.3,780.58,28,52.2002
446,24,79,162,10.3,967,712,28,53.3861
425,106.3,0,153.5,16.5,852.1,887.1,56,64.3005
284,15,141,179,5.46,842,801,56,44.5205
382,0,0,186,0,1047,739,28,37.4248
233.81,0,94.58,197.89,4.567,947.04,852.16,14,22.1391
359,19,141,154,10.91,942,801,28,62.9354
375,93.8,0,126.6,23.4,852.1,992.6,7,45.6985
198.6,132.4,0,192,0,978.4,825.5,7,14.6383
285,190,0,163,7.6,1031,685,28,53.5792
261.9,110.5,86.1,195.4,5,895.2,732.6,28,33.7188
149,153,194,192,8,935,623,28,24.5798
144.8,0,133.6,180.8,11.1,979.5,811.5,28,13.2021
296,0,0,186,0,1090,769,7,18.9123
168.88,42.22,124.25,158.33,10.83,1080.8,796.15,3,7.39808
190.34,0,125.18,166.61,9.88,1079,798.9,28,24.8487
425,106.3,0,153.5,16.5,852.1,887.1,7,49.201
289,0,0,192,0,913.2,895.3,28,25.5734
272.8,181.9,0,185.7,0,1012.4,714.3,28,31.3815
446,24,79,162,11.64,967,712,3,23.3457
213.72,98.05,24.51,181.71,6.86,1065.8,785.38,28,45.7054
212,141.3,0,203.5,0,973.4,750,3,6.80858
350,0,0,203,0,974,775,28,27.3377
238.05,0,94.11,186.66,7,949.91,847.01,56,39.5897
297,0,0,186,0,1040,734,7,30.9575
277.05,0,97.39,160.6,11.83,973.9,875.61,100,55.6407
214.9,53.8,121.89,155.63,9.61,1014.3,780.58,3,18.016
165,128.5,132.1,175.06,8.08,1005.8,746.6,14,33.088
295.71,0,95.64,171.54,8.87,955.14,859.2,56,48.7184
313,0,113,178,8,1002,689,28,36.8042
387,20,94,157,13.93,938,845,7,45.8984
387,20,94,157,11.61,938,845,28,46.6844
355.9,0,141.6,193.3,11,801.4,778.4,28,40.8687
190.68,0,125.4,162.14,7.77,1090,804.01,56,35.3425
424,22,132,178,8.48,822,750,56,65.6972
310,0,0,192,0,1012,830,7,17.2438
190.34,0,125.18,161.85,9.88,1088.1,802.59,3,9.44582
251.81,0,99.94,146.14,12.35,1006,899.76,28,33.9429
151,0,184,167,12,991,772,28,15.5684
332.5,142.5,0,228,0,932,594,270,40.2695
173.81,93.37,159.9,172.34,9.73,1007.2,746.6,3,15.8166
264.5,111,86.5,195.5,5.9,832.6,790.4,28,41.5423
387,20,94,157,14.32,938,845,28,50.2352
350,0,0,203,0,974,775,56,29.9784
178.03,129.8,118.6,179.94,3.57,1007.3,746.8,3,20.7256
218.23,54.64,123.78,140.75,11.91,1075.7,792.67,3,27.4205
233.81,0,94.58,197.89,4.567,947.04,852.16,56,27.6618
143,169.4,142.7,190.7,8.4,967.4,643.5,28,29.7261
212,0,124.78,159,7.84,1085.4,799.54,56,45.0848
288,121,0,177,7,908,829,28,42.1339
297.16,0,117.54,174.8,9.52,1022.8,753.45,56,51.9589
213.5,0,174.24,159.21,11.66,1043.6,771.9,3,15.6097
350,0,0,186,0,1050,770,28,34.2945
297.8,137.2,106.9,201.3,6,878.4,655.3,28,53.5247
141.3,212,0,203.5,0,971.8,748.5,3,4.82771
516,0,0,162,8.2,801,802,28,41.36856
250.2,166.8,0,203.5,0,977.6,694.1,3,9.73126
167.35,129.9,128.62,175.46,7.79,1006.3,746.6,14,31.8124
313.3,145,0,178.5,8,1001.9,688.7,28,41.0535
525,0,0,189,0,1125,613,180,61.9218
382,0,0,185,0,1047,739,28,37.4248
166,259.7,0,183.2,12.7,858.8,826.8,28,37.917
350,0,0,203,0,974,775,180,32.7225
167.35,129.9,128.62,175.46,7.79,1006.3,746.6,3,14.9409
500,0,0,200,0,1125,613,28,44.092
147.8,175.1,0,171.2,2.2,1000,828.5,28,26.9227
425,106.3,0,151.4,18.6,936,803.7,56,64.9004
250,0,95.69,187.42,5.53,956.86,861.17,28,29.22
155,0,143,193,9,1047,697,28,12.4588
186.2,124.1,0,185.7,0,1083.4,764.3,7,7.99585
252,0,0,185,0,1111,784,7,13.7137
133,200,0,192,0,927.4,839.2,7,13.664
277.19,97.82,24.46,160.7,11.19,1061.7,782.46,28,63.1422
331,0,0,192,0,1025,821,90,37.9143
212.57,0,100.39,159.35,10.37,1003.8,903.79,28,37.4041
342,38,0,228,0,932,670,270,55.0643
295.71,0,95.64,171.54,8.87,955.14,859.2,14,35.2322
296,0,106.7,221.4,10.5,819.2,778.4,28,31.4201
170.3,155.5,0,185.7,0,1026.6,724.3,7,10.7303
387,20,94,157,13.93,938,845,56,47.9668
339,0,0,197,0,968,781,365,38.8933
288,192,0,192,0,932,717.8,28,38.8044
102,153,0,192,0,887,942,3,4.56502
141.3,212,0,203.5,0,971.8,748.5,7,10.3939
322,0,0,203,0,974,800,180,29.5854
304,76,0,228,0,932,670,270,54.3783
290.35,0,96.18,168.08,9.41,961.18,865,3,22.5045
236.9,91.7,71.5,246.9,6,852.9,695.4,28,28.6298
225,0,0,181,0,1113,833,28,17.3403
277,0,0,191,0,968,856,180,32.3295
387,20,94,157,11.61,938,845,7,41.665
349,0,0,192,0,1056,809,3,15.8717
336,0,0,182,3,986,817,28,44.8642
238,0,0,186,0,1119,789,28,17.5403
251.37,0,118.27,192.94,5.75,1043.6,754.3,3,11.9831
143.6,0,174.9,158.4,17.9,942.7,844.5,28,15.4236
213.72,98.05,24.51,181.71,6.86,1065.8,785.38,14,30.3852
266,114,0,228,0,932,670,28,45.8543
333,0,0,192,0,931.2,842.6,90,41.6802
298.1,0,107,186.4,6.1,879,815.2,28,42.6441
388.6,97.1,0,157.9,12.1,852.1,925.7,7,34.9013
397,0,0,185.7,0,1040.6,734.3,7,25.4479
234,156,0,189,5.85,981,760,28,39.3001
310,0,0,192,0,970,850,28,27.9238
246.83,0,125.08,143.3,11.99,1086.8,800.89,28,52.5036
210.7,316.1,0,185.7,0,977,689.3,28,37.8136
148.1,0,182.1,181.4,15,838.9,884.3,28,15.5263
325,0,0,184,0,1063,783,28,30.5714
155.6,243.5,0,180.3,10.7,1022,697.7,28,37.3634
139.6,209.4,0,192,0,1047,806.9,7,14.5893
190,190,0,228,0,932,670,365,53.6923
446,24,79,162,11.61,967,712,28,57.0266
304,76,0,228,0,932,670,365,55.2601
236,0,0,194,0,968,885,3,6.46728
304,140,0,214,6,895,722,28,33.4189
250,0,95.69,191.84,5.33,948.9,857.2,100,41.1617
331,0,0,192,0,978,825,28,31.447
307,0,0,193,0,968,812,365,36.1492
165,0.02,143.57,163.81,0,1005.6,900.9,3,14.3963
229.68,0,118.16,195.23,6.13,1028.1,757.63,3,13.3552
158,0,195,220,11,898,713,28,8.53571
424,22,132,168,8.92,822,750,7,40.2851
339,0,0,197,0,968,781,28,32.0399
213.5,0,174.24,154.61,11.66,1052.3,775.48,56,51.4349
192,288,0,192,0,929.8,716.1,7,21.4806
143,169,143,191,8,967,643,28,29.7233
296,0,0,192,0,1085,765,7,14.2032
172.38,13.61,172.37,156.76,4.14,1006.3,856.4,100,37.6799
284,15,141,179,5.46,842,801,7,24.13166
436,0,0,218,0,838.4,719.7,28,23.849
339,0,0,197,0,968,781,180,36.4457
276.4,116,90.3,179.6,8.9,870.1,768.3,28,44.2844
212,0,124.78,159,7.84,1085.4,799.54,3,19.5191
359,19,141,154,10.91,942,801,28,59.4949
322,0,0,203,0,974,800,28,25.1797
469,117.2,0,137.8,32.2,852.1,840.5,56,69.2992
326,166,0,174,9,882,790,28,61.2324
307,0,0,193,0,968,812,90,32.9225
116,173,0,192,0,909.8,891.9,3,6.28044
212,141.3,0,203.5,0,973.4,750,90,39.7
252,97,76,194,8,835,821,28,33.3982
299.8,0,119.8,211.5,9.9,878.2,727.6,28,23.8359
251.37,0,118.27,192.94,5.75,1043.6,754.3,56,39.2657
475,118.8,0,181.1,8.9,852.1,781.5,56,72.2985
302,0,0,203,0,974,817,14,18.1263
307,0,0,193,0,968,812,28,27.5308
162,190.1,148.1,178.8,18.8,838.1,741.4,28,33.7623
173.54,50.05,173.53,164.77,6.47,1006.2,793.5,14,33.0052
262,111,86,195,5,895,733,28,33.7154
250,0,95.69,187.42,5.53,956.86,861.17,3,13.8171
480,0,0,192,0,936,721,28,43.892
375,0,0,186,0,1038,758,28,38.2108
303.6,139.9,0,213.5,6.2,895.5,722.5,28,33.4196
251.37,0,118.27,188.45,6.35,1028.4,757.73,3,13.1207
500,0,0,200,0,1125,613,90,47.2222
229.68,0,118.16,195.23,6.13,1028.1,757.63,14,22.3183
212.07,0,121.62,180.31,5.69,1057.6,779.32,3,12.4726
133.1,210.2,0,195.7,3.1,949.4,795.3,28,28.938
266,114,0,228,0,932,670,90,47.0298
153,102,0,192,0,888,943.1,90,26.3228
200,133,0,192,0,965.4,806.2,28,30.4397
500,0,0,200,0,1125,613,1,12.6381
322,0,0,203,0,974,800,14,20.7739
287.3,120.5,93.9,187.6,9.2,904.4,695.9,28,43.7983
318.8,212.5,0,155.7,14.3,852.1,880.4,56,66.1001
249.1,0,98.75,158.11,12.8,987.76,889.01,3,15.3615
356,0,142,193,11,801,778,28,40.8652
213.5,0,174.24,154.61,11.66,1052.3,775.48,28,45.9398
162,190,148,179,19,838,741,28,33.7567
251.37,0,118.27,188.45,5.75,1028.4,757.73,100,43.5818
149,117.6,91.7,182.9,7.1,953.4,780.3,28,23.5242
231.75,0,121.62,173.96,6.72,1056.4,778.45,56,42.6992
305.3,203.5,0,203.5,0,965.4,631,3,14.1439
525,0,0,189,0,1125,613,14,48.4012
480,0,0,192,0,936.2,712.2,7,34.5696
298,0,107,164,13,953,784,28,35.8596
389.9,189,0,145.9,22,944.7,755.8,7,59.095
275,0,0,183,0,1088,808,28,24.4971
332.5,142.5,0,228,0,932,594,90,37.7219
167,75.4,167,164.03,7.91,1007.3,770.1,3,15.5201
260.9,100.5,78.3,200.6,8.6,864.5,761.5,28,32.4012
157,214,152,200,9,819,704,28,33.0535
200,200,0,190,0,1145,660,28,49.2493
439,177,0,186,11.1,884.9,707.9,56,71.6986
379.5,151.2,0,153.9,15.9,1134.3,605,56,54.8961
342,38,0,228,0,932,670,90,50.4593
203.5,305.3,0,203.5,0,963.4,630,90,51.8638
249.1,0,98.75,158.11,12.8,987.76,889.01,14,28.6822
231.75,0,121.62,173.96,6.72,1056.4,778.45,14,26.7724
255.5,170.3,0,185.7,0,1026.6,724.3,7,17.2362
387,20,94,157,14.32,938,845,7,36.8387
213.76,98.06,24.52,181.74,6.65,1066,785.52,28,40.2309
250.2,166.8,0,203.5,0,977.6,694.1,90,47.7145
277,0,0,191,0,968,856,3,11.3626
236,0,0,193,0,968,885,7,9.99051
313.3,145,0,178.5,8,867.2,824,28,40.9252
380,95,0,228,0,932,594,90,40.5633
190.34,0,125.18,166.61,9.88,1079,798.9,56,31.7159
266,112,87,178,10,910,745,28,39.4173
350,0,0,203,0,974,775,7,18.1263
155,183,0,193,9,1047,697,28,18.2849
310,0,0,192,0,971,850.6,3,9.8664
531.3,0,0,141.8,28.2,852.1,893.7,3,41.2996
233.81,0,94.58,197.89,4.567,947.04,852.16,100,34.5565
214.9,53.8,121.89,155.63,9.61,1014.3,780.58,56,53.9584
389.9,189,0,145.9,22,944.7,755.8,91,82.5992
305.3,203.5,0,203.5,0,965.4,631,90,54.5989
141.9,166.6,129.7,173.5,10.9,882.6,785.3,28,44.6119
475,0,0,228,0,932,594,28,39.2898
218.23,54.64,123.78,140.75,11.91,1075.7,792.67,100,63.5283
178.03,129.8,118.6,179.94,3.57,1007.3,746.8,28,39.1622
192,288,0,192,0,929.8,716.1,28,39.3215
236,157,0,192,0,972.6,749.1,7,20.4161
212.57,0,100.39,159.35,10.37,1003.8,903.79,56,44.3954
387,20,94,157,14.32,938,845,56,56.3371
212,0,124.78,159,7.84,1085.4,799.54,28,38.5003
272.6,0,89.6,198.7,10.6,931.3,762.2,28,32.2454
475,0,0,228,0,932,594,90,42.229
289,133.7,0,194.9,5.5,924.1,760.1,28,46.2473
310,143,111,168,22,914,651,28,33.6878
251.37,0,118.27,188.45,6.35,1028.4,757.73,100,44.2092
231.75,0,121.62,173.96,6.72,1056.4,778.45,28,33.7292
313.3,262.2,0,175.5,8.6,1046.9,611.8,56,64.9004
122.6,183.9,0,203.5,0,958.2,800.1,90,33.1921
194.68,0,100.52,165.62,7.48,1006.4,905.9,3,12.4519
251.81,0,99.94,146.14,12.35,1006,899.76,56,44.1403
491,26,123,201,3.93,822,699,28,57.916
218.23,54.64,123.78,140.75,11.91,1075.7,792.67,28,55.5097
194.68,0,100.52,170.17,7.48,998,901.8,28,37.2662
246.83,0,125.08,143.3,11.99,1086.8,800.89,14,42.2166
167.35,129.9,128.62,175.46,7.79,1006.3,746.6,28,41.2031
332.5,142.5,0,228,0,932,594,180,39.7793
374,189.2,0,170.1,10.1,926.1,756.7,91,64.9004
141.3,212,0,203.5,0,971.8,748.5,90,39.6621
168.88,42.22,124.25,158.33,10.83,1080.8,796.15,14,23.5111
446,24,79,162,10.3,967,712,56,54.7651
136.4,161.6,125.8,171.6,10.4,922.6,764.4,28,29.0731
259.9,100.6,78.4,170.6,10.4,935.7,762.9,28,49.7733
425,106.3,0,153.5,16.5,852.1,887.1,91,65.1969
133,200,0,192,0,927.4,839.2,90,36.5884
446,24,79,162,11.61,967,712,7,52.0072
218.85,0,124.13,158.49,11.33,1078.7,794.91,56,37.2662
277,116.8,91,190.6,7,946.5,665.6,28,43.5783
326,0,138,199,11,801,792,28,40.6791
136,196,98,199,6,847,783,28,26.9654
237.5,237.5,0,228,0,932,594,180,36.252
170.3,155.5,0,185.7,0,1026.6,724.3,28,25.7264
151.6,0,111.9,184.4,7.9,992,815.9,28,12.181
286.3,200.9,0,144.7,11.2,1004.6,803.7,56,72.9948
166.09,0,163.27,176.46,4.49,1058.6,780.09,56,28.627
173,116,0,192,0,946.8,856.8,7,11.3922
229.97,0,118.31,195.47,4.63,1029.4,758.59,14,20.0844
277.05,0,97.39,160.6,11.83,973.9,875.61,28,48.284
382,0,0,186,0,1047,739,7,24.0007
310,142.8,0,167.9,10,914.3,804,28,45.3048
310,0,0,192,0,1012,830,90,35.7631
475,118.8,0,181.1,8.9,852.1,781.5,91,74.1945
385,0,0,186,0,966,763,3,14.6996
491,26,123,210,3.93,882,699,3,25.6091
218.23,54.64,123.78,140.75,11.91,1075.7,792.67,56,61.9908
198.6,132.4,0,192,0,978.4,825.5,90,38.0742
401.8,94.7,0,147.4,11.4,946.8,852.1,7,54.0963
190,190,0,228,0,932,670,28,40.857
162,207,172,216,10,822,638,28,39.8448
281,0,0,186,0,1104,774,28,22.4355
305.3,203.5,0,203.5,0,965.4,631,7,25.894
212.52,0,100.37,159.32,8.71,1007.8,903.59,100,42.9199
162,214,164,202,10,820,680,28,30.6472
165,0.02,143.57,163.81,0,1005.6,900.9,28,26.2001
277.05,0,97.39,160.6,11.83,973.9,875.61,3,23.1388
153,239,0,200,6,1002,684,28,26.8551
143.8,136.3,106.2,178.1,7.5,941.5,774.3,28,26.1477
312.9,160.5,0,177.6,9.6,916.6,759.5,28,52.4464
491,26,123,201,3.93,822,699,7,37.92118
427.5,47.5,0,228,0,932,594,180,41.8367
173.81,93.37,159.9,172.34,9.73,1007.2,746.6,56,48.9873
158.4,0,194.9,219.7,11,897.7,712.9,28,8.5364
359,19,141,154,10.91,942,801,7,35.7543
178.03,129.8,118.6,179.94,3.57,1007.3,746.8,56,48.5874
181.38,0,167.01,169.59,7.56,1055.6,777.8,14,21.6013
313.3,262.2,0,175.5,8.6,1046.9,611.8,3,28.7994
380,95,0,228,0,932,594,7,32.8232
362.6,189,0,164.9,11.6,944.7,755.8,91,79.2966
289,0,0,192,0,913.2,895.3,3,11.6549
359,19,141,154,10.91,942,801,56,66.7807
374,189.2,0,170.1,10.1,926.1,756.7,28,61.0945
182.04,45.21,121.97,170.21,8.19,1059.4,780.65,100,48.6701
469,117.2,0,137.8,32.2,852.1,840.5,3,40.1965
237.5,237.5,0,228,0,932,594,7,26.258
151,0,185,167,16,1074,678,28,13.4586
212.57,0,100.39,159.35,10.37,1003.8,903.79,100,47.7393
148.5,139.4,108.6,192.7,6.1,892.4,780,28,23.6966
310,0,0,192,0,1012,830,28,27.8273
350,0,0,203,0,974,775,90,31.3505
246.83,0,125.08,143.3,11.99,1086.8,800.89,56,60.3223
266,114,0,228,0,932,670,180,48.6956
397,0,0,185,0,1040,734,28,39.0933
237.5,237.5,0,228,0,932,594,90,33.1169
310,0,0,192,0,970,850,180,37.3282
388.6,97.1,0,157.9,12.1,852.1,925.7,28,50.6972
236,157,0,192,0,972.6,749.1,3,13.5654
172.38,13.61,172.37,156.76,4.14,1006.3,856.4,28,33.6878
167,75.4,167,164.03,7.91,1007.3,770.1,56,53.462
153.6,144.2,112.3,220.1,10.1,923.2,657.9,28,16.504
491,26,123,201,3.93,822,699,56,61.8558
425,106.3,0,153.5,16.5,852.1,887.1,28,60.2947
427.5,47.5,0,228,0,932,594,270,43.013
362.6,189,0,164.9,11.6,944.7,755.8,56,77.2972
275.07,0,121.35,159.48,9.9,1053.6,777.5,56,56.8473
318.8,212.5,0,155.7,14.3,852.1,880.4,28,55.4959
349,0,0,192,0,1047,806.9,3,15.0492
213.76,98.06,24.52,181.74,6.65,1066,785.52,14,17.8367
272.8,181.9,0,185.7,0,1012.4,714.3,7,19.7652
229.68,0,118.16,195.23,6.13,1028.1,757.63,28,24.5385
236,0,0,194,0,968,885,90,21.946
190.34,0,125.18,166.61,9.88,1079,798.9,100,33.5637
376,0,0,214.6,0,1003.5,762.36,100,43.0578
158.6,148.9,116,175.1,15,953.3,719.7,28,27.6811
133,210,0,196,3,949,795,28,31.02642
108.3,162.4,0,203.5,0,938.2,849,3,2.33181
252.31,0,98.75,146.25,14.17,987.76,889.01,14,42.2925
144,15,195,176,6,1021,709,28,15.3408
252,0,0,185,0,1111,784,28,19.6914
213.5,0,174.24,154.61,11.66,1052.3,775.48,14,33.7016
236,157,0,192,0,972.6,749.1,90,47.7821
342,38,0,228,0,932,670,365,56.142
222.36,0,96.67,189.29,4.46,967.08,870.32,28,24.8901
143.7,170.2,132.6,191.6,8.5,814.1,805.3,28,29.8709
275.07,0,121.35,159.48,9.9,1053.6,777.5,100,58.60546
212.07,0,121.62,180.31,5.69,1057.6,779.32,28,24.9039
284,15,141,179,5.46,842,801,3,13.3955
155,183,0,193,9,877,868,28,23.7869
213.74,0,174.74,154.79,10.16,1053.5,776.35,14,33.7292
295.71,0,95.64,171.54,8.87,955.14,859.2,100,52.0416
229.68,0,118.16,195.23,6.13,1028.1,757.63,56,31.3505
165,0.02,143.57,163.81,0,1005.6,900.9,100,37.9557
388.6,97.1,0,157.9,12.1,852.1,925.7,91,57.5988
222.36,0,96.67,189.29,4.46,967.08,870.32,56,29.4475
167,187,195,185,7,898,636,28,23.8903
286.3,200.9,0,144.7,11.2,1004.6,803.7,28,67.6996
290.35,0,96.18,168.08,9.41,961.18,865,28,34.7358
374.3,0,0,190.2,6.7,1013.2,730.4,28,39.0561
313,0,0,178,8,1000,822,28,25.0969
251.81,0,99.94,146.14,12.35,1006,899.76,100,45.3675
388.6,97.1,0,157.9,12.1,852.1,925.7,3,28.0961
385,0,0,186,0,966,763,7,23.2216
213.74,0,174.74,154.79,10.16,1053.5,776.35,28,40.1482
288.4,121,0,177.4,7,907.9,829.5,28,42.1401
194.68,0,100.52,165.62,7.48,1006.4,905.9,100,37.342
500.1,0,0,200,3,1124.4,613.2,28,44.1334
520,0,0,170,5.2,855,855,28,60.2809
260,101,78,171,10,936,763,28,49.7733
491,26,123,210,3.93,882,699,56,59.5904
148.1,0,136.6,158.1,16.1,1001.8,830.1,28,17.9595
236,0,0,193,0,968,885,180,24.1041
254,0,0,198,0,968,863,90,26.9447
333,0,0,192,0,931.2,842.6,28,31.9669
139.6,209.4,0,192,0,1047,806.9,28,28.2375
288,192,0,192,0,932,717.8,3,16.1096
480,0,0,192,0,936,721,90,54.2756
255,0,0,192,0,889.8,945,28,18.7462
250,0,95.69,187.42,5.53,956.86,861.17,14,24.9177
229.68,0,118.16,195.23,6.13,1028.1,757.63,100,40.8583
252,0,0,186,0,1111,784,7,11.466
237.5,237.5,0,228,0,932,594,270,38.408
318.8,212.5,0,155.7,14.3,852.1,880.4,3,25.2003
389.9,189,0,145.9,22,944.7,755.8,56,79.4001
149,118,92,183,7,953,780,28,23.518
246.83,0,125.08,143.3,11.99,1086.8,800.89,100,66.4241
160,250,0,168,12,1049,688,28,39.4518
254,0,0,198,0,968,863,365,29.7854
116,173,0,192,0,909.8,891.9,28,22.348
362.6,189,0,164.9,11.6,944.7,755.8,7,55.8958
305,0,100,196,10,959,705,28,30.1232